

Server with matching address found...
Connection established

 POTENTIOSTAT_SERVICE_HANDLE_FOUND

 AMPEROMETRY_HANDLE_FOUND

 COMMAND_HANDLE_FOUND

 AMPEROMETRY_CCCD_HANDLE_FOUND

 Information exchange is complete!

 MTU size is: 244 



 Enter Potentiostat Command:

 Command Sent 
 type: 1 
 scan rate: 0 
 range_n: 0 
 range_p: 0 
 tia gain: 0 
-0.726593
-0.802200
-0.673401
-0.789597
-0.662201
-0.796600
-0.667801
-0.792389
-0.663605
-0.782593
-0.659393
-0.789597
-0.667801
-0.798004
-0.677597
-0.798004
-0.663605
-0.796600
-0.679001
-0.802200
-0.669189
-0.800797
-0.663605
-0.793793
-0.676193
-0.796600
-0.673401
-0.807800
-0.690201
-0.809204
-0.684601
-0.783997
-0.683197
-0.796600
-0.697205
-0.796600
-0.691589
-0.789597
-0.677597
-0.796600
-0.677597
-0.809204
-0.677597
-0.802200
-0.694397
-0.821793
-0.681793
-0.804993
-0.683197
-0.804993
-0.681793
-0.791000
-0.676193
-0.802200
-0.673401
-0.803589
-0.676193
-0.800797
-0.676193
-0.803589
-0.681793
-0.817596
-0.671997
-0.817596
-0.673401
-0.824600
-0.681793
-0.820404
-0.663605
-0.834396
-0.670593
-0.844193
-0.671997
-0.841400
-0.667801
-0.849792
-0.669189
-0.869400
-0.655197
-0.876404
-0.657990
-0.898804
-0.659393
-0.904388
-0.656601
-0.925400
-0.642593
-0.954803
-0.639801
-0.988388
-0.623001
-1.013611
-0.614594
-1.049988
-0.596405
-1.082184
-0.579590
-1.114380
-0.564194
-1.153595
-0.540405
-1.178802
-0.515198
-1.226379
-0.480194
-1.254395
-0.470398
-1.265594
-0.428398
-1.272583
-0.417198
-1.300598
-0.394798
-1.261383
-0.383598
-1.251587
-0.383598
-1.203979
-0.375198
-1.170410
-0.387802
-1.125610
-0.405998
-1.079407
-0.433998
-1.040192
-0.460602
-0.998199
-0.484398
-0.970200
-0.512390
-0.954803
-0.539001
-0.928192
-0.565598
-0.891800
-0.596405
-0.877792
-0.615997
-0.873596
-0.623001
-0.862396
-0.662201
-0.866592
-0.657990
-0.859589
-0.684601
-0.858200
-0.690201
-0.839996
-0.687393
-0.849792
-0.709793
-0.848389
-0.705597
-0.858200
-0.702789
-0.835800
-0.704193
-0.831604
-0.722397
-0.845596
-0.712601
-0.837189
-0.720993
-0.867996
-0.722397
-0.845596
-0.722397
-0.867996
-0.727997
-0.847000
-0.726593
-0.855392
-0.726593
-0.856796
-0.725189
-0.852600
-0.720993
-0.860992
-0.729401
-0.865204
-0.723801
-0.869400
-0.748993
-0.881989
-0.742004
-0.880600
-0.744797
-0.887604
-0.751801
-0.898804
-0.739197
-0.900192
-0.768600
-0.904388
-0.758789
-0.905792
-0.750397
-0.911392
-0.779800
-0.907196
-0.771393
-0.935196
-0.775604
-0.922592
-0.776993
-0.942200
-0.772797
-0.937988
-0.786804
-0.946396
-0.795197
-0.944992
-0.793793
-0.936600
-0.792389
-0.956192
-0.803589
-0.959000
-0.798004
-0.974396
-0.817596
-0.981400
-0.814789
-0.993988
-0.835800
-0.982788
-0.842804
-0.995392
-0.834396
-0.999603
-0.847000
-1.007996
-0.849792
-1.014984
-0.863800
-1.031799
-0.854004
-1.033203
-0.862396
-1.051392
-0.855392
-1.049988
-0.884796
-1.080811
-0.887604
-1.096191
-0.901596
-1.083588
 Measurement Complete: 
ÿÿ
 Command Sent 
 type: 1 
 scan rate: 0 
 range_n: 0 
 range_p: 1 
 tia gain: 0 
-0.663605
-1.110199
-0.352798
-1.080811
-0.341599
-1.079407
-0.348602
-1.069580
-0.348602
-1.082184
-0.366798
-1.069580
-0.356995
-1.078003
-0.355598
-1.082184
-0.372398
-1.079407
-0.359802
-1.069580
-0.376602
-1.079407
-0.372398
-1.084991
-0.377998
-1.080811
-0.415802
-1.079407
-0.377998
-1.096191
-0.394798
-1.084991
-0.393402
-1.083588
-0.397598
-1.101807
-0.384995
-1.090607
-0.396194
-1.082184
-0.408798
-1.093384
-0.389198
-1.104584
-0.414398
-1.104584
-0.391998
-1.086395
-0.408798
-1.114380
-0.415802
-1.105988
-0.421402
-1.113007
-0.419998
-1.124207
-0.399002
-1.126984
-0.401794
-1.134003
-0.401794
-1.142395
-0.412994
-1.160583
-0.401794
-1.150787
-0.391998
-1.173187
-0.403198
-1.182983
-0.394798
-1.196991
-0.380798
-1.225006
-0.383598
-1.241791
-0.375198
-1.266998
-0.344398
-1.287994
-0.347198
-1.318787
-0.327599
-1.343994
-0.321999
-1.383179
-0.303802
-1.418182
-0.287003
-1.468597
-0.256195
-1.524597
-0.237999
-1.579193
-0.190399
-1.635193
-0.166599
-1.679993
-0.139999
-1.750000
-0.093800
-1.815796
-0.056000
-1.887207
-0.021000
-1.953003
0.023800
-2.010376
0.077000
-2.052368
0.096600
-2.085999
0.125999
-2.098572
0.146999
-2.136414
0.152599
-2.077576
0.165199
-2.045410
0.137199
-1.983795
0.146999
-1.915192
0.100800
-1.850800
0.071400
-1.756989
0.032200
-1.702393
-0.012600
-1.602997
-0.056000
-1.538605
-0.123199
-1.462982
-0.144199
-1.426605
-0.216999
-1.366394
-0.230999
-1.334198
-0.279999
-1.311798
-0.298203
-1.273987
-0.341599
-1.252991
-0.348602
-1.226379
-0.369598
-1.212402
-0.411598
-1.203979
-0.410202
-1.187195
-0.440994
-1.196991
-0.418594
-1.166199
-0.442398
-1.177399
-0.461998
-1.164795
-0.459198
-1.174591
-0.471802
-1.175995
-0.485794
-1.154999
-0.491394
-1.154999
-0.495598
-1.160583
-0.498398
-1.167603
-0.499802
-1.177399
-0.489998
-1.154999
-0.491394
-1.166199
-0.492798
-1.174591
-0.513794
-1.159180
-0.527802
-1.159180
-0.520798
-1.170410
-0.536194
-1.188599
-0.539001
-1.173187
-0.520798
-1.185791
-0.529205
-1.196991
-0.534790
-1.195587
-0.543198
-1.198395
-0.534790
-1.185791
-0.544601
-1.205383
-0.551605
-1.206787
-0.531998
-1.216583
-0.576797
-1.202606
-0.547394
-1.240387
-0.590790
-1.209595
-0.551605
-1.238983
-0.564194
-1.247406
-0.554398
-1.231995
-0.582397
-1.252991
-0.587997
-1.254395
-0.583801
-1.246002
-0.586594
-1.265594
-0.583801
-1.278198
-0.600601
-1.297791
-0.599197
-1.286591
-0.631393
-1.308990
-0.623001
-1.292206
-0.632797
-1.308990
-0.631393
-1.327209
-0.645401
-1.356598
-0.646790
-1.362183
-0.655197
-1.346802
 Measurement Complete: 
ÿÿ
 Command Sent 
 type: 1 
 scan rate: 0 
 range_n: 0 
 range_p: 0 
 tia gain: 0 
-0.680389
-0.746201
-0.635590
-0.742004
-0.628601
-0.754593
-0.639801
-0.765793
-0.642593
-0.751801
-0.653793
-0.755997
-0.642593
-0.747589
-0.656601
-0.767197
-0.666397
-0.757401
-0.662201
-0.757401
-0.670593
-0.758789
-0.669189
-0.779800
-0.674805
-0.775604
-0.653793
-0.768600
-0.666397
-0.774200
-0.676193
-0.768600
-0.674805
-0.785400
-0.683197
-0.778397
-0.679001
-0.776993
-0.671997
-0.772797
-0.683197
-0.781189
-0.681793
-0.793793
-0.683197
-0.776993
-0.683197
-0.792389
-0.684601
-0.788193
-0.697205
-0.782593
-0.694397
-0.788193
-0.674805
-0.785400
-0.681793
-0.795197
-0.680389
-0.788193
-0.676193
-0.793793
-0.676193
-0.802200
-0.671997
-0.796600
-0.686005
-0.817596
-0.684601
-0.806396
-0.676193
-0.810593
-0.673401
-0.834396
-0.684601
-0.847000
-0.669189
-0.847000
-0.671997
-0.858200
-0.666397
-0.879196
-0.660797
-0.888992
-0.655197
-0.910004
-0.648193
-0.926788
-0.635590
-0.978592
-0.628601
-1.002380
-0.624390
-1.024780
-0.596405
-1.061188
-0.597794
-1.104584
-0.580994
-1.135406
-0.564194
-1.160583
-0.537598
-1.190002
-0.522202
-1.202606
-0.478798
-1.223602
-0.460602
-1.215210
-0.446594
-1.226379
-0.432602
-1.220795
-0.412994
-1.182983
-0.394798
-1.169006
-0.418594
-1.117188
-0.427002
-1.103210
-0.439598
-1.040192
-0.461998
-1.017792
-0.488594
-0.970200
-0.511002
-0.933792
-0.537598
-0.929596
-0.567001
-0.904388
-0.585205
-0.879196
-0.620193
-0.855392
-0.624390
-0.855392
-0.646790
-0.845596
-0.659393
-0.837189
-0.664993
-0.834396
-0.669189
-0.830200
-0.686005
-0.842804
-0.702789
-0.821793
-0.704193
-0.823196
-0.708405
-0.807800
-0.708405
-0.823196
-0.713989
-0.820404
-0.713989
-0.830200
-0.712601
-0.838593
-0.735001
-0.838593
-0.725189
-0.838593
-0.739197
-0.827393
-0.729401
-0.832993
-0.720993
-0.842804
-0.737793
-0.835800
-0.725189
-0.835800
-0.718201
-0.847000
-0.744797
-0.842804
-0.737793
-0.844193
-0.739197
-0.855392
-0.737793
-0.837189
-0.727997
-0.851196
-0.742004
-0.855392
-0.744797
-0.876404
-0.748993
-0.880600
-0.754593
-0.876404
-0.751801
-0.881989
-0.754593
-0.880600
-0.767197
-0.873596
-0.754593
-0.875000
-0.772797
-0.876404
-0.760193
-0.873596
-0.776993
-0.890396
-0.758789
-0.897400
-0.767197
-0.901596
-0.772797
-0.893188
-0.782593
-0.904388
-0.765793
-0.925400
-0.810593
-0.910004
-0.795197
-0.942200
-0.804993
-0.942200
-0.810593
-0.937988
-0.803589
-0.950592
-0.814789
-0.939392
-0.820404
-0.971588
-0.813400
-0.967392
-0.816193
-0.979996
-0.828796
-0.985596
-0.834396
-0.991196
-0.844193
-1.005188
-0.848389
-0.999603
-0.839996
-1.020599
 Measurement Complete: 
ÿÿ
 Command Sent 
 type: 1 
 scan rate: 0 
 range_n: 0 
 range_p: 1 
 tia gain: 0 
-0.653793
-1.073792
-0.335999
-1.036011
-0.338799
-1.020599
-0.338799
-1.031799
-0.351395
-1.037384
-0.335999
-1.047180
-0.358398
-1.033203
-0.355598
-1.040192
-0.358398
-1.044403
-0.365402
-1.038788
-0.366798
-1.051392
-0.382202
-1.045807
-0.368195
-1.048584
-0.404602
-1.045807
-0.379395
-1.047180
-0.400398
-1.075195
-0.386398
-1.044403
-0.415802
-1.054199
-0.397598
-1.058411
-0.394798
-1.068207
-0.404602
-1.068207
-0.397598
-1.065399
-0.400398
-1.078003
-0.394798
-1.082184
-0.414398
-1.069580
-0.408798
-1.076599
-0.410202
-1.093384
-0.414398
-1.101807
-0.401794
-1.093384
-0.411598
-1.118591
-0.399002
-1.128387
-0.403198
-1.128387
-0.394798
-1.129791
-0.405998
-1.150787
-0.390594
-1.169006
-0.393402
-1.184387
-0.396194
-1.210999
-0.393402
-1.220795
-0.372398
-1.257202
-0.366798
-1.278198
-0.343002
-1.327209
-0.326202
-1.345398
-0.326202
-1.397186
-0.299599
-1.436401
-0.257599
-1.500793
-0.237999
-1.553986
-0.195999
-1.623993
-0.190399
-1.684204
-0.137199
-1.742981
-0.096600
-1.815796
-0.043400
-1.875977
-0.025200
-1.945984
0.046200
-2.006165
0.058800
-2.053772
0.131599
-2.060791
0.156799
-2.106995
0.183399
-2.102783
0.198799
-2.101379
0.179199
-2.045410
0.212799
-2.013184
0.155399
-1.927795
0.152599
-1.853577
0.089600
-1.800385
0.063000
-1.702393
0.021000
-1.643585
-0.049000
-1.544189
-0.071400
-1.493805
-0.141399
-1.427979
-0.183399
-1.374786
-0.232399
-1.334198
-0.264603
-1.292206
-0.299599
-1.273987
-0.328995
-1.238983
-0.351395
-1.229187
-0.373795
-1.226379
-0.400398
-1.187195
-0.433998
-1.177399
-0.429794
-1.178802
-0.433998
-1.154999
-0.447998
-1.169006
-0.460602
-1.143799
-0.474594
-1.169006
-0.478798
-1.170410
-0.478798
-1.143799
-0.499802
-1.153595
-0.499802
-1.136780
-0.496994
-1.142395
-0.516602
-1.143799
-0.505402
-1.142395
-0.501190
-1.134003
-0.519394
-1.160583
-0.492798
-1.156403
-0.502594
-1.164795
-0.515198
-1.138184
-0.518005
-1.140991
-0.534790
-1.146606
-0.529205
-1.169006
-0.526398
-1.175995
-0.537598
-1.177399
-0.530594
-1.184387
-0.540405
-1.181580
-0.543198
-1.163391
-0.569794
-1.157806
-0.548798
-1.198395
-0.551605
-1.188599
-0.564194
-1.171783
-0.550201
-1.185791
-0.568390
-1.220795
-0.551605
-1.188599
-0.562805
-1.226379
-0.572601
-1.217987
-0.557190
-1.219391
-0.589401
-1.195587
-0.590790
-1.231995
-0.597794
-1.233398
-0.583801
-1.241791
-0.601990
-1.240387
-0.593597
-1.233398
-0.613190
-1.252991
-0.597794
-1.255798
-0.624390
-1.261383
-0.613190
-1.266998
-0.621597
-1.260010
-0.630005
-1.297791
-0.648193
-1.307587
 Measurement Complete: 
ÿÿ
 Command Sent 
 type: 1 
 scan rate: 0 
 range_n: 0 
 range_p: 0 
 tia gain: 0 
-0.666397
-0.732193
-0.639801
-0.722397
-0.636993
-0.748993
-0.636993
-0.754593
-0.642593
-0.751801
-0.651001
-0.750397
-0.648193
-0.760193
-0.660797
-0.758789
-0.659393
-0.760193
-0.673401
-0.753204
-0.669189
-0.765793
-0.660797
-0.765793
-0.663605
-0.765793
-0.666397
-0.763000
-0.670593
-0.763000
-0.677597
-0.769989
-0.679001
-0.758789
-0.684601
-0.782593
-0.680389
-0.775604
-0.676193
-0.789597
-0.671997
-0.782593
-0.674805
-0.786804
-0.677597
-0.778397
-0.681793
-0.785400
-0.684601
-0.771393
-0.679001
-0.767197
-0.683197
-0.782593
-0.691589
-0.793793
-0.686005
-0.778397
-0.688797
-0.781189
-0.686005
-0.809204
-0.688797
-0.778397
-0.676193
-0.792389
-0.687393
-0.817596
-0.680389
-0.807800
-0.686005
-0.832993
-0.695801
-0.832993
-0.684601
-0.835800
-0.680389
-0.854004
-0.677597
-0.858200
-0.677597
-0.881989
-0.673401
-0.900192
-0.670593
-0.912796
-0.669189
-0.946396
-0.652405
-0.961792
-0.643997
-0.988388
-0.617401
-1.019196
-0.611801
-1.063995
-0.604797
-1.079407
-0.585205
-1.121399
-0.562805
-1.159180
-0.536194
-1.188599
-0.512390
-1.199799
-0.491394
-1.226379
-0.467598
-1.229187
-0.435394
-1.237610
-0.422798
-1.212402
-0.407394
-1.206787
-0.405998
-1.149384
-0.418594
-1.114380
-0.438202
-1.075195
-0.442398
-1.040192
-0.473198
-0.995392
-0.485794
-0.972992
-0.502594
-0.947800
-0.536194
-0.918396
-0.571198
-0.891800
-0.601990
-0.865204
-0.620193
-0.848389
-0.636993
-0.854004
-0.649597
-0.838593
-0.673401
-0.848389
-0.673401
-0.839996
-0.692993
-0.847000
-0.698593
-0.838593
-0.701401
-0.835800
-0.699997
-0.821793
-0.709793
-0.830200
-0.716797
-0.830200
-0.723801
-0.841400
-0.718201
-0.828796
-0.718201
-0.835800
-0.725189
-0.839996
-0.720993
-0.838593
-0.720993
-0.825989
-0.732193
-0.824600
-0.726593
-0.828796
-0.726593
-0.824600
-0.735001
-0.830200
-0.733597
-0.854004
-0.751801
-0.838593
-0.747589
-0.838593
-0.740601
-0.842804
-0.725189
-0.844193
-0.736389
-0.844193
-0.751801
-0.847000
-0.748993
-0.851196
-0.754593
-0.859589
-0.751801
-0.858200
-0.763000
-0.860992
-0.748993
-0.884796
-0.753204
-0.866592
-0.767197
-0.870789
-0.769989
-0.858200
-0.764404
-0.880600
-0.774200
-0.887604
-0.763000
-0.888992
-0.767197
-0.887604
-0.775604
-0.910004
-0.774200
-0.898804
-0.782593
-0.908600
-0.783997
-0.919800
-0.788193
-0.918396
-0.799393
-0.932404
-0.788193
-0.929596
-0.810593
-0.947800
-0.810593
-0.935196
-0.813400
-0.954803
-0.819000
-0.963196
-0.830200
-0.960388
-0.823196
-0.979996
-0.832993
-0.981400
-0.825989
-0.984192
-0.841400
-0.988388
-0.841400
-0.999603
 Measurement Complete: 
ÿÿ
 Command Sent 
 type: 1 
 scan rate: 0 
 range_n: 0 
 range_p: 1 
 tia gain: 0 
-0.645401
-1.072388
-0.347198
-1.038788
-0.319199
-1.022003
-0.328995
-1.031799
-0.345795
-1.034607
-0.344398
-1.026184
-0.344398
-1.026184
-0.347198
-1.037384
-0.351395
-1.031799
-0.355598
-1.036011
-0.363998
-1.038788
-0.366798
-1.047180
-0.376602
-1.038788
-0.397598
-1.042999
-0.369598
-1.052795
-0.393402
-1.057007
-0.390594
-1.051392
-0.397598
-1.054199
-0.382202
-1.057007
-0.400398
-1.059784
-0.394798
-1.059784
-0.399002
-1.072388
-0.405998
-1.062592
-0.417198
-1.082184
-0.424194
-1.075195
-0.408798
-1.062592
-0.421402
-1.097595
-0.403198
-1.087799
-0.401794
-1.080811
-0.415802
-1.103210
-0.400398
-1.113007
-0.411598
-1.134003
-0.401794
-1.134003
-0.408798
-1.138184
-0.408798
-1.160583
-0.397598
-1.177399
-0.400398
-1.201202
-0.369598
-1.216583
-0.390594
-1.268402
-0.361198
-1.289398
-0.347198
-1.325806
-0.338799
-1.355194
-0.326202
-1.415405
-0.292603
-1.462982
-0.282799
-1.526001
-0.247799
-1.580597
-0.193199
-1.657593
-0.159599
-1.708008
-0.121799
-1.776581
-0.084000
-1.859192
-0.042000
-1.912384
0.002800
-1.986603
0.079800
-2.041199
0.107800
-2.090210
0.158199
-2.111206
0.191799
-2.148987
0.208599
-2.122375
0.211399
-2.101379
0.202999
-2.065002
0.214199
-2.015991
0.159599
-1.938995
0.156799
-1.859192
0.095200
-1.791992
0.078400
-1.696777
0.022400
-1.635193
-0.058800
-1.546997
-0.089600
-1.485382
-0.155399
-1.437805
-0.200199
-1.367798
-0.259003
-1.328583
-0.270203
-1.290802
-0.310799
-1.268402
-0.343002
-1.238983
-0.354202
-1.223602
-0.387802
-1.216583
-0.412994
-1.180206
-0.428398
-1.166199
-0.425598
-1.167603
-0.463394
-1.160583
-0.456398
-1.142395
-0.475998
-1.159180
-0.474594
-1.156403
-0.481598
-1.160583
-0.491394
-1.154999
-0.508194
-1.161987
-0.503998
-1.142395
-0.495598
-1.148010
-0.515198
-1.150787
-0.511002
-1.139587
-0.518005
-1.153595
-0.508194
-1.160583
-0.526398
-1.180206
-0.518005
-1.143799
-0.533401
-1.152191
-0.530594
-1.145203
-0.540405
-1.167603
-0.539001
-1.157806
-0.527802
-1.169006
-0.548798
-1.181580
-0.550201
-1.174591
-0.545990
-1.180206
-0.540405
-1.175995
-0.551605
-1.194183
-0.551605
-1.191406
-0.554398
-1.175995
-0.571198
-1.194183
-0.555801
-1.182983
-0.558594
-1.187195
-0.557190
-1.206787
-0.569794
-1.215210
-0.579590
-1.208191
-0.580994
-1.213806
-0.590790
-1.213806
-0.580994
-1.209595
-0.590790
-1.231995
-0.587997
-1.219391
-0.600601
-1.240387
-0.593597
-1.236206
-0.601990
-1.266998
-0.614594
-1.257202
-0.627197
-1.251587
-0.617401
-1.285187
-0.638397
-1.279602
-0.639801
-1.286591
-0.642593
-1.282410
 Measurement Complete: 
ÿÿ
 Command Sent 
 type: 1 
 scan rate: 0 
 range_n: 0 
 range_p: 0 
 tia gain: 0 
-0.667801
-0.739197
-0.634201
-0.732193
-0.632797
-0.744797
-0.625793
-0.740601
-0.625793
-0.736389
-0.639801
-0.733597
-0.638397
-0.751801
-0.636993
-0.742004
-0.652405
-0.755997
-0.659393
-0.751801
-0.653793
-0.767197
-0.656601
-0.758789
-0.656601
-0.761597
-0.664993
-0.767197
-0.660797
-0.764404
-0.669189
-0.767197
-0.670593
-0.758789
-0.656601
-0.779800
-0.659393
-0.778397
-0.686005
-0.778397
-0.679001
-0.776993
-0.684601
-0.772797
-0.673401
-0.781189
-0.679001
-0.792389
-0.697205
-0.785400
-0.680389
-0.783997
-0.683197
-0.796600
-0.683197
-0.800797
-0.680389
-0.793793
-0.683197
-0.809204
-0.695801
-0.802200
-0.686005
-0.798004
-0.684601
-0.802200
-0.684601
-0.806396
-0.686005
-0.810593
-0.687393
-0.814789
-0.686005
-0.828796
-0.702789
-0.837189
-0.686005
-0.854004
-0.679001
-0.858200
-0.679001
-0.879196
-0.677597
-0.879196
-0.679001
-0.911392
-0.653793
-0.932404
-0.645401
-0.956192
-0.627197
-0.982788
-0.623001
-1.020599
-0.610397
-1.063995
-0.592194
-1.086395
-0.571198
-1.128387
-0.568390
-1.149384
-0.545990
-1.175995
-0.516602
-1.202606
-0.491394
-1.217987
-0.470398
-1.227783
-0.452194
-1.225006
-0.432602
-1.205383
-0.419998
-1.169006
-0.421402
-1.152191
-0.424194
-1.110199
-0.438202
-1.062592
-0.446594
-1.034607
-0.480194
-1.007996
-0.485794
-0.981400
-0.519394
-0.947800
-0.554398
-0.922592
-0.585205
-0.894592
-0.615997
-0.860992
-0.630005
-0.872192
-0.643997
-0.854004
-0.657990
-0.866592
-0.680389
-0.839996
-0.674805
-0.832993
-0.690201
-0.841400
-0.695801
-0.835800
-0.707001
-0.828796
-0.702789
-0.834396
-0.727997
-0.825989
-0.705597
-0.847000
-0.715393
-0.832993
-0.707001
-0.837189
-0.725189
-0.849792
-0.730804
-0.835800
-0.722397
-0.838593
-0.739197
-0.832993
-0.730804
-0.841400
-0.725189
-0.828796
-0.732193
-0.856796
-0.735001
-0.839996
-0.737793
-0.837189
-0.732193
-0.845596
-0.732193
-0.838593
-0.747589
-0.844193
-0.735001
-0.835800
-0.750397
-0.865204
-0.753204
-0.837189
-0.746201
-0.859589
-0.744797
-0.862396
-0.751801
-0.862396
-0.754593
-0.863800
-0.753204
-0.880600
-0.767197
-0.869400
-0.751801
-0.897400
-0.768600
-0.881989
-0.765793
-0.897400
-0.793793
-0.936600
-0.771393
-0.898804
-0.778397
-0.903000
-0.776993
-0.903000
-0.783997
-0.914200
-0.774200
-0.905792
-0.786804
-0.901596
-0.799393
-0.922592
-0.799393
-0.916992
-0.810593
-0.935196
-0.809204
-0.925400
-0.810593
-0.947800
-0.810593
-0.968796
-0.821793
-0.949188
-0.830200
-0.957596
-0.819000
-0.971588
-0.835800
-0.992599
-0.844193
-0.975800
-0.841400
-1.007996
-0.858200
-0.995392
 Measurement Complete: 
ÿÿ
 Command Sent 
 type: 1 
 scan rate: 0 
 range_n: 0 
 range_p: 1 
 tia gain: 0 
-0.648193
-1.051392
-0.330399
-1.026184
-0.323395
-1.031799
-0.312195
-1.022003
-0.321999
-1.028992
-0.349998
-1.028992
-0.361198
-1.031799
-0.337402
-1.016388
-0.359802
-1.019196
-0.362595
-1.036011
-0.362595
-1.027588
-0.358398
-1.037384
-0.368195
-1.040192
-0.366798
-1.034607
-0.359802
-1.028992
-0.376602
-1.057007
-0.399002
-1.034607
-0.391998
-1.036011
-0.386398
-1.049988
-0.386398
-1.049988
-0.397598
-1.047180
-0.407394
-1.066803
-0.394798
-1.055603
-0.396194
-1.065399
-0.400398
-1.054199
-0.399002
-1.079407
-0.405998
-1.079407
-0.397598
-1.070984
-0.408798
-1.097595
-0.417198
-1.098999
-0.417198
-1.111603
-0.399002
-1.107391
-0.408798
-1.136780
-0.412994
-1.138184
-0.399002
-1.164795
-0.407394
-1.181580
-0.376602
-1.199799
-0.380798
-1.234802
-0.375198
-1.257202
-0.352798
-1.290802
-0.337402
-1.329987
-0.319199
-1.350983
-0.320602
-1.423798
-0.288399
-1.461609
-0.277199
-1.527405
-0.230999
-1.586182
-0.209999
-1.663208
-0.155399
-1.710785
-0.107800
-1.793396
-0.078400
-1.871796
-0.026600
-1.912384
0.015400
-2.000610
0.067200
-2.035583
0.113400
-2.078979
0.159599
-2.119568
0.212799
-2.151794
0.214199
-2.115417
0.250599
-2.102783
0.218399
-2.067810
0.215599
-2.006165
0.188999
-1.945984
0.159599
-1.859192
0.098000
-1.786377
0.061600
-1.688385
0.021000
-1.617004
-0.039200
-1.532990
-0.095200
-1.471405
-0.142799
-1.419586
-0.201599
-1.362183
-0.235199
-1.311798
-0.264603
-1.293579
-0.319199
-1.265594
-0.333199
-1.252991
-0.354202
-1.220795
-0.372398
-1.201202
-0.405998
-1.191406
-0.452194
-1.171783
-0.425598
-1.169006
-0.471802
-1.159180
-0.463394
-1.164795
-0.470398
-1.159180
-0.485794
-1.154999
-0.491394
-1.163391
-0.495598
-1.140991
-0.499802
-1.156403
-0.524994
-1.148010
-0.498398
-1.146606
-0.524994
-1.156403
-0.516602
-1.152191
-0.516602
-1.157806
-0.520798
-1.145203
-0.508194
-1.175995
-0.526398
-1.160583
-0.541794
-1.153595
-0.550201
-1.178802
-0.522202
-1.150787
-0.541794
-1.166199
-0.551605
-1.148010
-0.536194
-1.182983
-0.540405
-1.182983
-0.536194
-1.180206
-0.557190
-1.156403
-0.543198
-1.177399
-0.554398
-1.187195
-0.559998
-1.160583
-0.547394
-1.171783
-0.568390
-1.196991
-0.565598
-1.194183
-0.544601
-1.191406
-0.565598
-1.195587
-0.586594
-1.199799
-0.583801
-1.198395
-0.597794
-1.191406
-0.585205
-1.210999
-0.586594
-1.212402
-0.586594
-1.226379
-0.604797
-1.233398
-0.569794
-1.226379
-0.613190
-1.238983
-0.618805
-1.261383
-0.611801
-1.244598
-0.610397
-1.257202
-0.611801
-1.278198
-0.645401
-1.271179
-0.623001
-1.285187
 Measurement Complete: 
ÿÿ
 Command Sent 
 type: 1 
 scan rate: 0 
 range_n: 0 
 range_p: 0 
 tia gain: 0 
-0.656601
-0.727997
-0.620193
-0.729401
-0.623001
-0.733597
-0.624390
-0.736389
-0.620193
-0.726593
-0.627197
-0.739197
-0.635590
-0.751801
-0.646790
-0.739197
-0.639801
-0.754593
-0.634201
-0.736389
-0.635590
-0.758789
-0.652405
-0.754593
-0.655197
-0.760193
-0.656601
-0.744797
-0.666397
-0.754593
-0.662201
-0.765793
-0.657990
-0.781189
-0.676193
-0.765793
-0.677597
-0.779800
-0.673401
-0.765793
-0.669189
-0.771393
-0.683197
-0.785400
-0.673401
-0.776993
-0.688797
-0.772797
-0.677597
-0.786804
-0.681793
-0.775604
-0.681793
-0.785400
-0.679001
-0.802200
-0.674805
-0.789597
-0.679001
-0.786804
-0.694397
-0.799393
-0.688797
-0.806396
-0.695801
-0.802200
-0.683197
-0.807800
-0.681793
-0.811996
-0.677597
-0.825989
-0.691589
-0.827393
-0.677597
-0.839996
-0.674805
-0.852600
-0.676193
-0.855392
-0.669189
-0.867996
-0.674805
-0.876404
-0.660797
-0.907196
-0.649597
-0.925400
-0.646790
-0.957596
-0.618805
-0.979996
-0.623001
-1.024780
-0.618805
-1.070984
-0.606201
-1.083588
-0.576797
-1.119995
-0.562805
-1.156403
-0.551605
-1.184387
-0.519394
-1.192810
-0.494194
-1.213806
-0.463394
-1.213806
-0.460602
-1.229187
-0.433998
-1.223602
-0.403198
-1.154999
-0.431198
-1.135406
-0.421402
-1.129791
-0.453598
-1.078003
-0.450798
-1.038788
-0.480194
-1.010803
-0.513794
-0.971588
-0.526398
-0.953400
-0.552994
-0.918396
-0.579590
-0.898804
-0.610397
-0.879196
-0.624390
-0.863800
-0.651001
-0.866592
-0.663605
-0.863800
-0.679001
-0.839996
-0.669189
-0.842804
-0.691589
-0.851196
-0.702789
-0.834396
-0.719604
-0.830200
-0.729401
-0.839996
-0.713989
-0.824600
-0.719604
-0.830200
-0.715393
-0.813400
-0.711197
-0.825989
-0.722397
-0.831604
-0.715393
-0.839996
-0.716797
-0.823196
-0.730804
-0.830200
-0.735001
-0.837189
-0.719604
-0.834396
-0.730804
-0.837189
-0.746201
-0.851196
-0.744797
-0.827393
-0.744797
-0.830200
-0.720993
-0.844193
-0.726593
-0.869400
-0.739197
-0.839996
-0.742004
-0.849792
-0.733597
-0.855392
-0.744797
-0.854004
-0.746201
-0.877792
-0.753204
-0.875000
-0.763000
-0.860992
-0.750397
-0.859589
-0.757401
-0.910004
-0.767197
-0.894592
-0.779800
-0.879196
-0.765793
-0.890396
-0.772797
-0.880600
-0.765793
-0.898804
-0.748993
-0.887604
-0.789597
-0.908600
-0.781189
-0.893188
-0.786804
-0.905792
-0.793793
-0.922592
-0.786804
-0.933792
-0.799393
-0.936600
-0.817596
-0.944992
-0.806396
-0.926788
-0.813400
-0.961792
-0.823196
-0.944992
-0.809204
-0.950592
-0.811996
-0.960388
-0.837189
-0.953400
-0.823196
-0.979996
-0.819000
-0.947800
-0.824600
-0.971588
-0.841400
-0.987000
 Measurement Complete: 
ÿÿ
 Command Sent 
 type: 1 
 scan rate: 0 
 range_n: 0 
 range_p: 1 
 tia gain: 0 
-0.652405
-1.052795
-0.340195
-1.027588
-0.321999
-1.024780
-0.331802
-1.019196
-0.344398
-1.023407
-0.333199
-1.038788
-0.340195
-1.024780
-0.354202
-1.024780
-0.362595
-1.017792
-0.359802
-1.030396
-0.376602
-1.031799
-0.366798
-1.036011
-0.365402
-1.038788
-0.356995
-1.036011
-0.377998
-1.042999
-0.383598
-1.031799
-0.386398
-1.045807
-0.377998
-1.038788
-0.393402
-1.065399
-0.390594
-1.040192
-0.393402
-1.062592
-0.394798
-1.065399
-0.401794
-1.070984
-0.407394
-1.075195
-0.407394
-1.079407
-0.415802
-1.066803
-0.411598
-1.087799
-0.412994
-1.084991
-0.410202
-1.091980
-0.405998
-1.111603
-0.397598
-1.113007
-0.410202
-1.128387
-0.399002
-1.125610
-0.421402
-1.140991
-0.410202
-1.159180
-0.391998
-1.187195
-0.390594
-1.215210
-0.371002
-1.220795
-0.376602
-1.266998
-0.362595
-1.290802
-0.362595
-1.331390
-0.328995
-1.356598
-0.310799
-1.415405
-0.298203
-1.474182
-0.265999
-1.548401
-0.228199
-1.593201
-0.193199
-1.675781
-0.158199
-1.731781
-0.105000
-1.801788
-0.058800
-1.885803
-0.005600
-1.943176
0.023800
-2.011780
0.091000
-2.069214
0.142799
-2.104187
0.193199
-2.141968
0.208599
-2.165771
0.225399
-2.135010
0.251999
-2.111206
0.235199
-2.084595
0.249199
-2.008972
0.188999
-1.937592
0.162399
-1.864807
0.105000
-1.776581
0.074200
-1.688385
0.026600
-1.630981
-0.028000
-1.531586
-0.103600
-1.472778
-0.170799
-1.406982
-0.195999
-1.369202
-0.251999
-1.306183
-0.270203
-1.287994
-0.338799
-1.266998
-0.330399
-1.243195
-0.369598
-1.233398
-0.400398
-1.203979
-0.403198
-1.192810
-0.435394
-1.178802
-0.440994
-1.174591
-0.467598
-1.164795
-0.466202
-1.146606
-0.485794
-1.156403
-0.499802
-1.154999
-0.488594
-1.146606
-0.498398
-1.149384
-0.503998
-1.145203
-0.520798
-1.148010
-0.505402
-1.138184
-0.511002
-1.146606
-0.515198
-1.148010
-0.518005
-1.153595
-0.531998
-1.152191
-0.516602
-1.131195
-0.533401
-1.157806
-0.519394
-1.154999
-0.539001
-1.169006
-0.533401
-1.150787
-0.536194
-1.156403
-0.558594
-1.174591
-0.531998
-1.169006
-0.554398
-1.169006
-0.541794
-1.170410
-0.554398
-1.175995
-0.540405
-1.178802
-0.557190
-1.170410
-0.564194
-1.181580
-0.559998
-1.181580
-0.561401
-1.190002
-0.576797
-1.185791
-0.567001
-1.203979
-0.565598
-1.212402
-0.565598
-1.201202
-0.575394
-1.192810
-0.587997
-1.201202
-0.582397
-1.217987
-0.592194
-1.225006
-0.574005
-1.222198
-0.585205
-1.227783
-0.589401
-1.222198
-0.610397
-1.233398
-0.597794
-1.230591
-0.599197
-1.254395
-0.617401
-1.233398
-0.604797
-1.255798
-0.617401
-1.278198
-0.618805
-1.287994
 Measurement Complete: 
ÿÿ